{
  "type": "transaction",
  "resourceType": "Bundle",
  "id": "f8a7309c-66d1-4b73-952f-9567cdb40fd8",
  "entry": [
    {
      "resource": {
        "resourceType": "Patient",
        "id": "b6fa120e-931c-48da-93e2-3e38c264ae8f",
        "identifier": [
          {
            "use": "usual",
            "system": "http://example.com/test-id",
            "value": "test-patient-b6fa120e-931c-48da-93e2-3e38c264ae8f"
          }
        ],
        "name": [
          {
            "family": "McNumerator",
            "given": [
              "Nancy"
            ]
          }
        ],
        "gender": "male",
        "birthDate": "2001-01-01"
      },
      "request": {
        "method": "PUT",
        "url": "Patient/b6fa120e-931c-48da-93e2-3e38c264ae8f"
      }
    },
    {
      "resource": {
        "resourceType": "Procedure",
        "id": "c9a87c06-bcb3-4d33-b609-c911fb297a9d",
        "code": {
          "coding": [
            {
              "system": "exampleSystem2",
              "version": "exampleVersion2",
              "code": "exampleCode2"
            }
          ]
        },
        "status": "completed",
        "subject": {
          "reference": "Patient/b6fa120e-931c-48da-93e2-3e38c264ae8f"
        },
        "performedPeriod": {
          "start": "2022-09-25T08:09:00.389Z",
          "end": "2022-09-26T08:09:00.389Z"
        }
      },
      "request": {
        "method": "PUT",
        "url": "Procedure/c9a87c06-bcb3-4d33-b609-c911fb297a9d"
      }
    },
    {
      "resource": {
        "resourceType": "Procedure",
        "id": "6dfece5d-c508-4503-bb09-f6713c8b3065",
        "code": {
          "coding": [
            {
              "system": "exampleSystem",
              "version": "exampleVersion",
              "code": "exampleCode"
            }
          ]
        },
        "status": "completed",
        "subject": {
          "reference": "Patient/b6fa120e-931c-48da-93e2-3e38c264ae8f"
        },
        "performedPeriod": {
          "start": "2022-11-04T14:02:04.516Z",
          "end": "2022-11-05T14:02:04.516Z"
        }
      },
      "request": {
        "method": "PUT",
        "url": "Procedure/6dfece5d-c508-4503-bb09-f6713c8b3065"
      }
    },
    {
      "resource": {
        "resourceType": "Procedure",
        "id": "db689c3f-57b9-4b51-a785-119bedf6d6fd",
        "code": {
          "coding": [
            {
              "system": "exampleSystem3",
              "version": "exampleVersion3",
              "code": "exampleCode3"
            }
          ]
        },
        "status": "completed",
        "subject": {
          "reference": "Patient/b6fa120e-931c-48da-93e2-3e38c264ae8f"
        },
        "performedPeriod": {
          "start": "2022-05-21T14:35:24.685Z",
          "end": "2022-05-22T14:35:24.685Z"
        }
      },
      "request": {
        "method": "PUT",
        "url": "Procedure/db689c3f-57b9-4b51-a785-119bedf6d6fd"
      }
    },
    {
      "resource": {
        "resourceType": "MeasureReport",
        "id": "c59dc583-9823-4ba2-852c-3347d7809d22",
        "measure": "http://example.com/Measure/measure-ProportionBooleanTest",
        "period": {
          "start": "2022-01-01T05:00:00.000Z",
          "end": "2022-12-31T05:00:00.000Z"
        },
        "status": "complete",
        "type": "individual",
        "meta": {
          "profile": [
            "http://hl7.org/fhir/us/cqfmeasures/StructureDefinition/test-case-cqfm"
          ]
        },
        "extension": [
          {
            "url": "http://hl7.org/fhir/us/cqfmeasures/StructureDefinition/cqfm-inputParameters",
            "valueReference": {
              "reference": "#a9ec239b-8e3b-4228-8ac9-4b9d9878eedb"
            }
          }
        ],
        "modifierExtension": [
          {
            "url": "http://hl7.org/fhir/us/cqfmeasures/StructureDefinition/cqfm-isTestCase",
            "valueBoolean": true
          }
        ],
        "contained": [
          {
            "resourceType": "Parameters",
            "id": "a9ec239b-8e3b-4228-8ac9-4b9d9878eedb",
            "parameter": [
              {
                "name": "subject",
                "valueString": "b6fa120e-931c-48da-93e2-3e38c264ae8f"
              }
            ]
          }
        ],
        "group": [
          {
            "population": [
              {
                "code": {
                  "coding": [
                    {
                      "system": "http://terminology.hl7.org/CodeSystem/measure-population",
                      "code": "initial-population"
                    }
                  ]
                },
                "count": 1
              },
              {
                "code": {
                  "coding": [
                    {
                      "system": "http://terminology.hl7.org/CodeSystem/measure-population",
                      "code": "numerator"
                    }
                  ]
                },
                "count": 1
              },
              {
                "code": {
                  "coding": [
                    {
                      "system": "http://terminology.hl7.org/CodeSystem/measure-population",
                      "code": "denominator"
                    }
                  ]
                },
                "count": 1
              }
            ],
            "measureScore": {
              "value": 1
            }
          }
        ]
      },
      "request": {
        "method": "PUT",
        "url": "MeasureReport/c59dc583-9823-4ba2-852c-3347d7809d22"
      }
    }
  ]
}